Folder: revisao-sistematica-geotexteis/1-REFERENCIAS/DADOS_EXTERNOS/PALM

Note: 1-REFERENCIAS/DADOS_EXTERNOS/PALM/banco de dados extraido.txt
bukit, nurdin; Sinulingga, Karya; Hakim, Abdul; bukit, bungafisikanta (2022), “potential of silica characterization data from Oil Palm Boiler Ash plantation waste as development material”, Mendeley Data, V1, doi: 10.17632/2vrmbfk2rx.1

Note: README.md
# RevisÃ£o SistemÃ¡tica: GeotÃªxteis LignocelulÃ³sicos

## ğŸ“‹ Sobre o Projeto

Este repositÃ³rio contÃ©m uma revisÃ£o sistemÃ¡tica sobre **Arquitetura QuÃ­mica e Modelagem de Confiabilidade de GeotÃªxteis LignocelulÃ³sicos para EstabilizaÃ§Ã£o BiogeoquÃ­mica em Solos Tropicais**.

### ğŸ¯ Objetivos
- Analisar a arquitetura quÃ­mica de polÃ­meros naturais (celulose, hemicelulose, lignina)
- Desenvolver modelos de confiabilidade baseados na distribuiÃ§Ã£o Weibull
- Avaliar estratÃ©gias de modificaÃ§Ã£o de superfÃ­cie para otimizar durabilidade
- Quantificar benefÃ­cios biogeoquÃ­micos em solos tropicais

### ğŸŒ¿ EspÃ©cies Estudadas
- **Typha domingensis** (taboa) - Rica em celulose (48%), L/C = 0,46
- **Syagrus coronata** (palmeira-ouricuri) - Rica em lignina (32%), L/C = 0,67

## ğŸ“ Estrutura do RepositÃ³rio

```
â”œâ”€â”€ 0-OLD/                          # VersÃµes anteriores do manuscrito
â”œâ”€â”€ 1-REFERENCIAS/                  # Dados experimentais e artigos
â”‚   â”œâ”€â”€ JUNCO/                      # Dados de precipitaÃ§Ã£o
â”‚   â”œâ”€â”€ OURICURI/                   # Experimentos com Syagrus coronata
â”‚   â”œâ”€â”€ TABOA/                      # Experimentos com Typha domingensis
â”‚   â””â”€â”€ _EXTRAIDOS/                 # Dados consolidados em CSV
â”œâ”€â”€ 2-MANUSCRITO/                   # Manuscrito principal
â”‚   â”œâ”€â”€ Review_Article_Draft.md     # Texto principal com citaÃ§Ãµes
â”‚   â”œâ”€â”€ referencias.bib             # 13 referÃªncias consolidadas
â”‚   â”œâ”€â”€ library.bib                 # Biblioteca completa (30+ entradas)
â”‚   â”œâ”€â”€ Manuscrito_com_Referencias.docx # Documento Word final
â”‚   â””â”€â”€ DOCUMENTACAO_SESSAO.md      # DocumentaÃ§Ã£o completa da sessÃ£o
â”œâ”€â”€ 3-IMAGENS/                      # Figuras e diagramas
â”œâ”€â”€ 4-CODIGOS/                      # Scripts de anÃ¡lise
â”‚   â”œâ”€â”€ analyze_data.py            # AnÃ¡lise estatÃ­stica
â”‚   â”œâ”€â”€ sav_extract.py             # ExtraÃ§Ã£o de dados SPSS
â”‚   â”œâ”€â”€ consolidar_csvs.py         # ConsolidaÃ§Ã£o de dados
â”‚   â””â”€â”€ gerar-docx.py              # GeraÃ§Ã£o de documentos
â””â”€â”€ resultados_sciencedirect/       # Resultados de busca bibliogrÃ¡fica
```

## ğŸ”¬ Metodologias

### Ensaios MecÃ¢nicos
- **TraÃ§Ã£o:** EMIC DL (100mm gauge, 20mm/min)
- **ResistÃªncia Ã  perfuraÃ§Ã£o:** ASTM D4833
- **AnÃ¡lise estatÃ­stica:** ANOVA-RM, Cohen's D, Eta squared

### Tratamentos Aplicados
- **MercerizaÃ§Ã£o alcalina:** NaOH 3-9% (Ã³timo: 6%)
- **Revestimentos acrÃ­licos:** Camada Ãºnica vs. dupla
- **DuraÃ§Ã£o funcional:** 120-180 dias (FSL Pâ‚â‚€ Weibull)

### Modelagem
- **DistribuiÃ§Ã£o Weibull:** Î² (forma), Î· (escala)
- **RegressÃ£o GLM:** Tempo de falha acelerado
- **Pandoc:** Processamento de citaÃ§Ãµes (formato APA)

## ğŸ“Š Resultados Principais

### Propriedades MecÃ¢nicas
- **GeotÃªxteis naturais:** 3-9 NÂ·mmâ»Â² (vs. sintÃ©ticos: 50-200 kNÂ·mâ»Â²)
- **Vida Ãºtil funcional:** 120-180 dias
- **Coeficiente de variaÃ§Ã£o

File: XRD OPBA Calcinacion and ballmill Data Excel.txt
/////////////////////////////////////////////////////////////////////////////////
/// Profile Data Ascii Dump (XRD)                                             ///
/////////////////////////////////////////////////////////////////////////////////

  Group     : Standard
  Data      : ABKSNB
  File Name : ABKSNB.RAW

# Profile Datafile
          comment             =
          date & time         = 07-29-22 17:31:30

# Measurement Condition
    X-ray tube
          target              = Cu
          voltage             = 40.0 (kV)
          current             = 30.0 (mA)
    Slits
          divergence slit     = 1.00000 (deg)
          scatter slit        = 1.00000 (deg)
          receiving slit      = 0.30000 (mm)
    Scanning
          drive axis          = Theta-2Theta
          scan range          =    7.000 -   70.000
          scan mode           = Continuous Scan
          scan speed          =   2.0000 (deg/min)
          sampling pitch      =   0.0200 (deg)
          preset time         =   0.60 (sec)

# Data      [ Total No. = 3151 ]
  <2Theta>   <   I   >
     7.0000         4
     7.2200         4
     7.4400         6
     7.6600        10
     7.8800         8
     8.1000         6
     8.3200         6
     8.5400         6
     8.7600        12
     8.9800         6
     9.2000        10
     9.4200        12
     9.6400        14
     9.8600        10
    10.0800        12
    10.3000         8
    10.5200        22
    10.7400        14
    10.9600        16
    11.1800         8
    11.4000        16
    11.6200        20
    11.8400        18
    12.0600        12
    12.2800        14
    12.5000        10
    12.7200        12
    12.9400        12
    13.1600        12
    13.3800        16
    13.6000        16
    13.8200        12
    14.0400         6
    14.2600        12
    14.4800        10
    14.7000         8
    14.9200         6
    15.1400        10
    15.3600        10
    15.5800         4
    15.8000         8
    16.0200        12
    16.2400        14
    16.4600        14
    16.6800        12
    16.9000        10
    17.1200        10
    17.3400        10
    17.5600         6
    17.7800         8
    18.0000        18
    18.2200        18
    18.4400        10
    18.6600        14
    18.8800        10
    19.1000        18
    19.3200        16
    19.5400        14
    19.7600         8
    19.9800        12
    20.2000        12
    20.4200        14
    20.6400        14
    20.8600        10
    21.0800        12
    21.3000        18
    21.5200        10
    21.7400        10
    21.9600        20
    22.1800        20
    22.4000        14
    22.6200        16
    22.8400        18
    23.0600        12
    23.2800        22
    23.5000        20
    23.7200        16
    23.9400         4
    24.1600        10
    24.3800        14
    24.6000        14
    24.8200        14
    25.0400         6
    25.2600        10
    25.4800        12
    25.7000         8
    25.9200        14
    26.1400         6
    26.3600        12
    26.5800        10
    26.8000        12
    27.0200        14
    27.2400        10
    27.4600         6
    27.6800        16
    27.9000         6
    28.1200         8
    28.3400        12
    28.5600         8
    28.7800         6
    29.0000        10
    29.2200         4
    29.4400        16
    29.6600         8
    29.8800         8
    30.1000        10
    30.3200        10
    30.5400         8
    30.7600        10
    30.9800        16
    31.2000        10
    31.4200        14
    31.6400         8
    31.8600        10
    32.0800         6
    32.3000        14
    32.5200        10
    32.7400         4
    32.9600        12
    33.1800         8
    33.4000         4
    33.6200         4
    33.8400         8
    34.0600         2
    34.2800         8
    34.5000         6
    34.7200         6
    34.9400         8
    35.1600         4
    35.3800        10
    35.6000         8
    35.8200         6
    36.0400        10
    36.2600        12
    36.4800        12
    36.7000         8
    36.9200        10
    37.1400        14
    37.3600        10
    37.5800         6
    37.8000         4
    38.0200         6
    38.2400         8
    38.4600        14
    38.6800         4
    38.9000         6
    39.1200         4
    39.3400         6
    39.5600         2
    39.7800         4
    40.0000         4
    40.2200         4
    40.4400         8
    40.6600         8
    40.8800         8
    41.1000         2
    41.3200         4
    41.5400         6
    41.7600         4
    41.9800         8
    42.2000         6
    42.4200         4
    42.6400         2
    42.8600         4
    43.0800         4
    43.3000         4
    43.5200         8
    43.7400         8
    43.9600         6
    44.1800         2
    44.4000         6
    44.6200         6
    44.8400         8
    45.0600         8
    45.2800         6
    45.5000         4
    45.7200         4
    45.9400         2
    46.1600         0
    46.3800         6
    46.6000        10
    46.8200        10
    47.0400         2
    47.2600         2
    47.4800         4
    47.7000         8
    47.9200         0
    48.1400         2
    48.3600         2
    48.5800         4
    48.8000         4
    49.0200         4
    49.2400         4
    49.4600         2
    49.6800         4
    49.9000        12
    50.1200         2
    50.3400         6
    50.5600         2
    50.7800         2
    51.0000         4
    51.2200         4
    51.4400         4
    51.6600         8
    51.8800         4
    52.1000         4
    52.3200         8
    52.5400         2
    52.7600         4
    52.9800         6
    53.2000         2
    53.4200         4
    53.6400         2
    53.8600         4
    54.0800         6
    54.3000         2
    54.5200         4
    54.7400         4
    54.9600         6
    55.1800         4
    55.4000         6
    55.6200         0
    55.8400         2
    56.0600         4
    56.2800         6
    56.5000         6
    56.7200         4
    56.9400         4
    57.1600         8
    57.3800         2
    57.6000         2
    57.8200         2
    58.0400         4
    58.2600         2
    58.4800         6
    58.7000         4
    58.9200         2
    59.1400         4
    59.3600         2
    59.5800         2
    59.8000         8
    60.0200         4
    60.2400        10
    60.4600         4
    60.6800         4
    60.9000         2
    61.1200         4
    61.3400         4
    61.5600         2
    61.7800         6
    62.0000         4
    62.2200         4
    62.4400         2
    62.6600         4
    62.8800         4
    63.1000         4
    63.3200         2
    63.5400         2
    63.7600         4
    63.9800         4
    64.2000         2
    64.4200         6
    64.6400         2
    64.8600         2
    65.0800         4
    65.3000         0
    65.5200         4
    65.7400         4
    65.9600         4
    66.1800         2
    66.4000         6
    66.6200        10
    66.8400         4
    67.0600         4
    67.2800         2
    67.5000         4
    67.7200         8
    67.9400         4
    68.1600         4
    68.3800         0
    68.6000         0
    68.8200         6
    69.0400         6
    69.2600         2
    69.4800         2
    69.7000         0
    69.9200         4
    70.0000         0

File: XRD OPBA copresipitation Data Excel.txt
/////////////////////////////////////////////////////////////////////////////////
/// Profile Data Ascii Dump (XRD)                                             ///
/////////////////////////////////////////////////////////////////////////////////

  Group     : Standard
  Data      : ABKS-5MHCl
  File Name : ABKS-5MHCl.RAW

# Profile Datafile
          comment             = ok
          date & time         = 05-31-21 15:48:04

# Measurement Condition
    X-ray tube
          target              = Cu
          voltage             = 40.0 (kV)
          current             = 30.0 (mA)
    Slits
          divergence slit     = 1.00000 (deg)
          scatter slit        = 1.00000 (deg)
          receiving slit      = 0.30000 (mm)
    Scanning
          drive axis          = Theta-2Theta
          scan range          =    7.000 -   70.000
          scan mode           = Continuous Scan
          scan speed          =   2.0000 (deg/min)
          sampling pitch      =   0.0200 (deg)
          preset time         =   0.60 (sec)

# Data      [ Total No. = 3151 ]
  <2Theta>   <   I   >
     7.0000        18
     7.2200        20
     7.4400        16
     7.6600        24
     7.8800        22
     8.1000        20
     8.3200        26
     8.5400        32
     8.7600        24
     8.9800        12
     9.2000        18
     9.4200        20
     9.6400        22
     9.8600        18
    10.0800        26
    10.3000        22
    10.5200        22
    10.7400        20
    10.9600        16
    11.1800        18
    11.4000        16
    11.6200        18
    11.8400        20
    12.0600        12
    12.2800        16
    12.5000        10
    12.7200        16
    12.9400        18
    13.1600        14
    13.3800        20
    13.6000        18
    13.8200        18
    14.0400        12
    14.2600        12
    14.4800        18
    14.7000        18
    14.9200        12
    15.1400        20
    15.3600        10
    15.5800        24
    15.8000        26
    16.0200        20
    16.2400        22
    16.4600        16
    16.6800        20
    16.9000        20
    17.1200         6
    17.3400        14
    17.5600        20
    17.7800        26
    18.0000        10
    18.2200        14
    18.4400        18
    18.6600        14
    18.8800        18
    19.1000        26
    19.3200        20
    19.5400        20
    19.7600        14
    19.9800        16
    20.2000        28
    20.4200        20
    20.6400        24
    20.8600        18
    21.0800        34
    21.3000        22
    21.5200        22
    21.7400        22
    21.9600        18
    22.1800        30
    22.4000        22
    22.6200        28
    22.8400        18
    23.0600        22
    23.2800        18
    23.5000        22
    23.7200        34
    23.9400        14
    24.1600        14
    24.3800        24
    24.6000        26
    24.8200        30
    25.0400        26
    25.2600        24
    25.4800        22
    25.7000        32
    25.9200        26
    26.1400        34
    26.3600        36
    26.5800        14
    26.8000        22
    27.0200        18
    27.2400        28
    27.4600        30
    27.6800        22
    27.9000        30
    28.1200        20
    28.3400        26
    28.5600        18
    28.7800        22
    29.0000        22
    29.2200        18
    29.4400         6
    29.6600        18
    29.8800        20
    30.1000        18
    30.3200        22
    30.5400        18
    30.7600        24
    30.9800        18
    31.2000        20
    31.4200        18
    31.6400        22
    31.8600        20
    32.0800        22
    32.3000        26
    32.5200        18
    32.7400        16
    32.9600        18
    33.1800        10
    33.4000        20
    33.6200        10
    33.8400        16
    34.0600        24
    34.2800        18
    34.5000        18
    34.7200        20
    34.9400        16
    35.1600        20
    35.3800        16
    35.6000        14
    35.8200        32
    36.0400        10
    36.2600        18
    36.4800         6
    36.7000        18
    36.9200        12
    37.1400        10
    37.3600        16
    37.5800         8
    37.8000        14
    38.0200        12
    38.2400         8
    38.4600        18
    38.6800        18
    38.9000        16
    39.1200         8
    39.3400        14
    39.5600        12
    39.7800        10
    40.0000        12
    40.2200        10
    40.4400         8
    40.6600        10
    40.8800        12
    41.1000        18
    41.3200         8
    41.5400         6
    41.7600        10
    41.9800        10
    42.2000         8
    42.4200        12
    42.6400        14
    42.8600        20
    43.0800        10
    43.3000        10
    43.5200         8
    43.7400         6
    43.9600        10
    44.1800        10
    44.4000        10
    44.6200         8
    44.8400        10
    45.0600         8
    45.2800        24
    45.5000        10
    45.7200        14
    45.9400         8
    46.1600         6
    46.3800         8
    46.6000        10
    46.8200         8
    47.0400        16
    47.2600         8
    47.4800        14
    47.7000        10
    47.9200        14
    48.1400        14
    48.3600        16
    48.5800         4
    48.8000        16
    49.0200        14
    49.2400        10
    49.4600        10
    49.6800        10
    49.9000        12
    50.1200         8
    50.3400         8
    50.5600        20
    50.7800        12
    51.0000        14
    51.2200         6
    51.4400         6
    51.6600         8
    51.8800        12
    52.1000        10
    52.3200         6
    52.5400         8
    52.7600         6
    52.9800         8
    53.2000         2
    53.4200         8
    53.6400        10
    53.8600         8
    54.0800        16
    54.3000         6
    54.5200        14
    54.7400         6
    54.9600        12
    55.1800        14
    55.4000        12
    55.6200         8
    55.8400        12
    56.0600         6
    56.2800         8
    56.5000        16
    56.7200        10
    56.9400         8
    57.1600         6
    57.3800         4
    57.6000         4
    57.8200         6
    58.0400         8
    58.2600         4
    58.4800         4
    58.7000        10
    58.9200         8
    59.1400         6
    59.3600         8
    59.5800        14
    59.8000        24
    60.0200        12
    60.2400        14
    60.4600        12
    60.6800        16
    60.9000        10
    61.1200        14
    61.3400         2
    61.5600         6
    61.7800        10
    62.0000         6
    62.2200        12
    62.4400         8
    62.6600         8
    62.8800         6
    63.1000         8
    63.3200         6
    63.5400        10
    63.7600        14
    63.9800        14
    64.2000         6
    64.4200        10
    64.6400         8
    64.8600         8
    65.0800        12
    65.3000        10
    65.5200         6
    65.7400         4
    65.9600         8
    66.1800         6
    66.4000         6
    66.6200        10
    66.8400        10
    67.0600         4
    67.2800         0
    67.5000         6
    67.7200         4
    67.9400         8
    68.1600        10
    68.3800         4
    68.6000        12
    68.8200         2
    69.0400        12
    69.2600        12
    69.4800         6
    69.7000         8
    69.9200        10
    70.0000         6

File: XRD OPBA PEG 6000 Data Excel.txt
/////////////////////////////////////////////////////////////////////////////////
/// Profile Data Ascii Dump (XRD)                                             ///
/////////////////////////////////////////////////////////////////////////////////

  Group     : Standard
  Data      : Loiss
  File Name : Loiss.RAW

# Profile Datafile
          comment             =
          date & time         = 08-01-22 14:07:26

# Measurement Condition
    X-ray tube
          target              = Cu
          voltage             = 40.0 (kV)
          current             = 30.0 (mA)
    Slits
          divergence slit     = 1.00000 (deg)
          scatter slit        = 1.00000 (deg)
          receiving slit      = 0.30000 (mm)
    Scanning
          drive axis          = Theta-2Theta
          scan range          =    7.000 -   70.000
          scan mode           = Continuous Scan
          scan speed          =   2.0000 (deg/min)
          sampling pitch      =   0.0200 (deg)
          preset time         =   0.60 (sec)

# Data      [ Total No. = 3151 ]
  <2Theta>   <   I   >
     7.0000        10
     7.2200         4
     7.4400         8
     7.6600         8
     7.8800         6
     8.1000        10
     8.3200        10
     8.5400         6
     8.7600        12
     8.9800        14
     9.2000         8
     9.4200        12
     9.6400        10
     9.8600        12
    10.0800        12
    10.3000        12
    10.5200        18
    10.7400        16
    10.9600        10
    11.1800        18
    11.4000        12
    11.6200        18
    11.8400        14
    12.0600         6
    12.2800         8
    12.5000        12
    12.7200        14
    12.9400        12
    13.1600         6
    13.3800        16
    13.6000         8
    13.8200         8
    14.0400         6
    14.2600         6
    14.4800         8
    14.7000        12
    14.9200         6
    15.1400        12
    15.3600         8
    15.5800        10
    15.8000         8
    16.0200        10
    16.2400        10
    16.4600         8
    16.6800        10
    16.9000         6
    17.1200         6
    17.3400        12
    17.5600         8
    17.7800        10
    18.0000        12
    18.2200        14
    18.4400        18
    18.6600        16
    18.8800        18
    19.1000        28
    19.3200        14
    19.5400        12
    19.7600        10
    19.9800        10
    20.2000         8
    20.4200        12
    20.6400        18
    20.8600        12
    21.0800        12
    21.3000        10
    21.5200        10
    21.7400        16
    21.9600        16
    22.1800        12
    22.4000        12
    22.6200        20
    22.8400        20
    23.0600        26
    23.2800        28
    23.5000        30
    23.7200        22
    23.9400        14
    24.1600        14
    24.3800         8
    24.6000        10
    24.8200         4
    25.0400        10
    25.2600        12
    25.4800        10
    25.7000         4
    25.9200        12
    26.1400        10
    26.3600         6
    26.5800        22
    26.8000        12
    27.0200        16
    27.2400        10
    27.4600         6
    27.6800         8
    27.9000        12
    28.1200         8
    28.3400         8
    28.5600        12
    28.7800         4
    29.0000         8
    29.2200         6
    29.4400         4
    29.6600         6
    29.8800        10
    30.1000        10
    30.3200         4
    30.5400         6
    30.7600         6
    30.9800         8
    31.2000         8
    31.4200        10
    31.6400         6
    31.8600        10
    32.0800        12
    32.3000        14
    32.5200         8
    32.7400         4
    32.9600         8
    33.1800         8
    33.4000         4
    33.6200         6
    33.8400         6
    34.0600        10
    34.2800         6
    34.5000         6
    34.7200         2
    34.9400         4
    35.1600        14
    35.3800         8
    35.6000         8
    35.8200         6
    36.0400         6
    36.2600         6
    36.4800         6
    36.7000        10
    36.9200         8
    37.1400         6
    37.3600        10
    37.5800         8
    37.8000         6
    38.0200        10
    38.2400         4
    38.4600         2
    38.6800         6
    38.9000         8
    39.1200         6
    39.3400         6
    39.5600         2
    39.7800         8
    40.0000         6
    40.2200        12
    40.4400         4
    40.6600         2
    40.8800         6
    41.1000         4
    41.3200         6
    41.5400         6
    41.7600         4
    41.9800         4
    42.2000         8
    42.4200         8
    42.6400         6
    42.8600         4
    43.0800         0
    43.3000         4
    43.5200         6
    43.7400         4
    43.9600         8
    44.1800         4
    44.4000         4
    44.6200         2
    44.8400         8
    45.0600         2
    45.2800         8
    45.5000         8
    45.7200        10
    45.9400         2
    46.1600         0
    46.3800         8
    46.6000         4
    46.8200         8
    47.0400         4
    47.2600         4
    47.4800         6
    47.7000         2
    47.9200         6
    48.1400         4
    48.3600         6
    48.5800         8
    48.8000         8
    49.0200         6
    49.2400         8
    49.4600         2
    49.6800         6
    49.9000         4
    50.1200         6
    50.3400         4
    50.5600         4
    50.7800         4
    51.0000         6
    51.2200         4
    51.4400         8
    51.6600         2
    51.8800         2
    52.1000         6
    52.3200         4
    52.5400         2
    52.7600         8
    52.9800         4
    53.2000         4
    53.4200         6
    53.6400         4
    53.8600         4
    54.0800         4
    54.3000         6
    54.5200         2
    54.7400         4
    54.9600         4
    55.1800         2
    55.4000         2
    55.6200         4
    55.8400         6
    56.0600         4
    56.2800         8
    56.5000         4
    56.7200         2
    56.9400         4
    57.1600         4
    57.3800         6
    57.6000         6
    57.8200         2
    58.0400         6
    58.2600         2
    58.4800         6
    58.7000         6
    58.9200         6
    59.1400         4
    59.3600         2
    59.5800         2
    59.8000         0
    60.0200         6
    60.2400         2
    60.4600         8
    60.6800         4
    60.9000         0
    61.1200         2
    61.3400         4
    61.5600         4
    61.7800         4
    62.0000         6
    62.2200         6
    62.4400         4
    62.6600         8
    62.8800         2
    63.1000         4
    63.3200         0
    63.5400         0
    63.7600         2
    63.9800         2
    64.2000         4
    64.4200         6
    64.6400         4
    64.8600         2
    65.0800         2
    65.3000         2
    65.5200         2
    65.7400         4
    65.9600         6
    66.1800         2
    66.4000         6
    66.6200         6
    66.8400         4
    67.0600         2
    67.2800         4
    67.5000         4
    67.7200         4
    67.9400         4
    68.1600         4
    68.3800         2
    68.6000         2
    68.8200         2
    69.0400         4
    69.2600         2
    69.4800         0
    69.7000         4
    69.9200         4
    70.0000         4